File: data/with_dotw/TGA
,Unnamed: 0,adj_close,adj_high,adj_low,adj_open,adj_volume,close,ex_dividend,high,low,open,split_ratio,volume,Day of Week
0,2017-02-10,1.79,1.83,1.7,1.7,409334.0,1.79,0.0,1.83,1.7,1.7,1.0,409334.0,4
11,2017-01-26,1.78,1.8,1.74,1.74,86060.0,1.78,0.0,1.8,1.74,1.74,1.0,86060.0,3
22,2017-01-10,1.78,1.8,1.73,1.76,114073.0,1.78,0.0,1.8,1.73,1.76,1.0,114073.0,1
33,2016-12-22,1.69,1.71,1.68,1.71,62932.0,1.69,0.0,1.71,1.68,1.71,1.0,62932.0,3
44,2016-12-07,1.695,1.76,1.6715,1.7,203058.0,1.695,0.0,1.76,1.6715,1.7,1.0,203058.0,2
55,2016-11-21,1.83,1.84,1.8,1.83,65396.0,1.83,0.0,1.84,1.8,1.83,1.0,65396.0,0
66,2016-11-04,1.8,1.84,1.78,1.82,35074.0,1.8,0.0,1.84,1.78,1.82,1.0,35074.0,4
77,2016-10-20,2.05,2.09,2.04,2.05,17124.0,2.05,0.0,2.09,2.04,2.05,1.0,17124.0,3
88,2016-10-05,2.04,2.06,2.0,2.06,101066.0,2.04,0.0,2.06,2.0,2.06,1.0,101066.0,2
99,2016-09-20,1.96,1.99,1.92,1.99,48103.0,1.96,0.0,1.99,1.92,1.99,1.0,48103.0,1
110,2016-09-02,1.9,1.93,1.87,1.91,32262.0,1.9,0.0,1.93,1.87,1.91,1.0,32262.0,4
121,2016-08-18,2.1,2.25,1.98,2.01,388292.0,2.1,0.0,2.25,1.98,2.01,1.0,388292.0,3
132,2016-08-03,1.6,1.64,1.58,1.6,99232.0,1.6,0.0,1.64,1.58,1.6,1.0,99232.0,2
143,2016-07-19,1.75,1.81,1.73,1.79,16400.0,1.75,0.0,1.81,1.73,1.79,1.0,16400.0,1
154,2016-07-01,1.87,1.96,1.82,1.82,28120.0,1.87,0.0,1.96,1.82,1.82,1.0,28120.0,4
165,2016-06-16,1.6,1.62,1.55,1.61,151267.0,1.6,0.0,1.62,1.55,1.61,1.0,151267.0,3
176,2016-06-01,1.73,1.73,1.64,1.7,199990.0,1.73,0.0,1.73,1.64,1.7,1.0,199990.0,2
187,2016-05-16,1.94,1.97,1.92,1.9699,105043.0,1.94,0.0,1.97,1.92,1.9699,1.0,105043.0,0
198,2016-04-29,1.94,2.08,1.91,2.0,84544.0,1.94,0.0,2.08,1.91,2.0,1.0,84544.0,4
209,2016-04-14,1.76,1.8,1.75,1.8,48353.0,1.76,0.0,1.8,1.75,1.8,1.0,48353.0,3
220,2016-03-30,1.69,1.72,1.63,1.66,149465.0,1.69,0.0,1.72,1.63,1.66,1.0,149465.0,2
231,2016-03-14,1.69,1.74,1.65,1.69,78104.0,1.69,0.0,1.74,1.65,1.69,1.0,78104.0,0
242,2016-02-26,1.44,1.53,1.43,1.53,110820.0,1.44,0.0,1.53,1.43,1.53,1.0,110820.0,4
253,2016-02-10,1.23,1.25,1.1801,1.21,86716.0,1.23,0.0,1.25,1.1801,1.21,1.0,86716.0,2
264,2016-01-26,1.24,1.25,1.14,1.19,211533.0,1.24,0.0,1.25,1.14,1.19,1.0,211533.0,1
275,2016-01-08,1.66,1.72,1.56,1.64,207452.0,1.66,0.0,1.72,1.56,1.64,1.0,207452.0,4
286,2015-12-22,1.76,1.76,1.7,1.7,89487.0,1.76,0.0,1.76,1.7,1.7,1.0,89487.0,1
297,2015-12-07,1.78315,1.94077,1.75359,1.92107,381821.0,1.81,0.0,1.97,1.78,1.95,1.0,381821.0,0
308,2015-11-19,1.99988,2.07869,1.93092,1.93092,380393.0,2.03,0.0,2.11,1.96,1.96,1.0,380393.0,3
319,2015-11-04,2.6895,2.7092,2.62053,2.6895,119347.0,2.73,0.0,2.75,2.66,2.73,1.0,119347.0,2
330,2015-10-20,2.69935,2.73984,2.63039,2.63039,114020.0,2.74,0.0,2.7811,2.67,2.67,1.0,114020.0,1
341,2015-10-05,2.77816,2.89638,2.76831,2.79786,94709.0,2.82,0.0,2.94,2.81,2.84,1.0,94709.0,0
352,2015-09-18,2.61068,2.80772,2.59098,2.80772,112062.0,2.65,0.0,2.85,2.63,2.85,1.0,112062.0,4
363,2015-09-02,2.7561,3.00744,2.72709,3.00744,435053.0,2.85,0.0,3.1099,2.82,3.1099,1.0,435053.0,2
374,2015-08-18,2.73676,2.86248,2.70775,2.71742,79824.0,2.83,0.0,2.96,2.8,2.81,1.0,79824.0,1
385,2015-08-03,2.8238,2.89149,2.78511,2.83347,48714.0,2.92,0.0,2.99,2.88,2.93,1.0,48714.0,0
396,2015-07-17,3.09457,3.27328,3.06556,3.23963,337153.0,3.2,0.0,3.3848,3.17,3.35,1.0,337153.0,4
407,2015-07-01,3.7425,3.85854,3.64579,3.81986,154879.0,3.87,0.0,3.99,3.77,3.95,1.0,154879.0,2
418,2015-06-16,3.94558,3.94558,3.75217,3.75217,117718.0,4.08,0.0,4.08,3.88,3.88,1.0,117718.0,1
429,2015-06-01,3.84993,3.92635,3.80694,3.83082,336085.0,4.03,0.0,4.11,3.985,4.01,1.0,336085.0,0
440,2015-05-14,3.85948,4.01711,3.85948,3.96457,155316.0,4.04,0.0,4.205,4.04,4.15,1.0,155316.0,3
451,2015-04-29,4.30848,4.3658,4.11981,4.15563,388598.0,4.51,0.0,4.57,4.3125,4.35,1.0,388598.0,2
462,2015-04-14,3.88814,3.99323,3.85948,3.97412,199986.0,4.07,0.0,4.18,4.04,4.16,1.0,199986.0,1
473,2015-03-27,3.39138,3.45825,3.25763,3.29585,435383.0,3.55,0.0,3.62,3.41,3.45,1.0,435383.0,4
484,2015-03-12,2.74176,2.82774,2.72265,2.82774,244586.0,2.87,0.05,2.96,2.85,2.96,1.0,244586.0,3
495,2015-02-25,2.84505,2.84505,2.67603,2.72298,222436.0,3.03,0.0,3.03,2.85,2.9,1.0,222436.0,2
506,2015-02-09,3.13612,3.19246,3.01406,3.03284,314068.0,3.34,0.0,3.4,3.21,3.23,1.0,314068.0,0
517,2015-01-23,2.7042,2.80749,2.69481,2.77932,242575.0,2.88,0.0,2.99,2.87,2.96,1.0,242575.0,4
528,2015-01-07,3.32392,3.45537,3.27697,3.38025,231680.0,3.54,0.0,3.68,3.49,3.6,1.0,231680.0,2
539,2014-12-19,3.47415,3.51171,3.10796,3.13612,407962.0,3.7,0.0,3.74,3.31,3.34,1.0,407962.0,4
550,2014-12-04,3.1112,3.12966,2.88963,3.02811,392845.0,3.37,0.0,3.39,3.13,3.28,1.0,392845.0,3
561,2014-11-18,3.56357,3.6282,3.53864,3.59127,168958.0,3.86,0.0,3.93,3.833,3.89,1.0,168958.0,1
572,2014-11-03,3.859,4.02517,3.84976,4.02517,193966.0,4.18,0.0,4.36,4.17,4.36,1.0,193966.0,0
583,2014-10-17,4.48678,4.85606,4.47754,4.77297,214391.0,4.86,0.0,5.26,4.85,5.17,1.0,214391.0,4
594,2014-10-02,5.21611,5.47461,5.17918,5.44691,260084.0,5.65,0.0,5.93,5.61,5.9,1.0,260084.0,3
605,2014-09-17,6.00083,6.10238,5.98237,6.06546,78100.0,6.5,0.0,6.61,6.48,6.57,1.0,78100.0,2
616,2014-09-02,6.19102,6.23681,6.10859,6.23681,101500.0,6.76,0.0,6.81,6.67,6.81,1.0,101500.0,1
627,2014-08-15,5.85216,5.92543,5.72394,5.74226,150300.0,6.39,0.0,6.47,6.25,6.27,1.0,150300.0,4
638,2014-07-31,5.74226,5.88879,5.71479,5.88879,118900.0,6.27,0.0,6.43,6.24,6.43,1.0,118900.0,3
649,2014-07-16,6.09028,6.09028,5.97122,5.98038,125600.0,6.65,0.0,6.65,6.52,6.53,1.0,125600.0,2
660,2014-06-30,6.85958,6.942,6.7222,6.75883,70100.0,7.49,0.0,7.58,7.34,7.38,1.0,70100.0,0
671,2014-06-13,6.58483,6.62146,6.53903,6.57567,52300.0,7.19,0.0,7.23,7.14,7.18,1.0,52300.0,4
682,2014-05-29,6.16621,6.21169,6.02979,6.08436,77200.0,6.78,0.0,6.83,6.63,6.69,1.0,77200.0,3
693,2014-05-13,5.95465,6.0621,5.91883,5.99047,113000.0,6.65,0.0,6.77,6.61,6.69,1.0,113000.0,1
704,2014-04-28,7.03813,7.0829,6.9844,7.0829,105600.0,7.86,0.0,7.91,7.8,7.91,1.0,105600.0,0
715,2014-04-10,6.54564,6.77845,6.50087,6.73368,57600.0,7.31,0.0,7.57,7.26,7.52,1.0,57600.0,3
726,2014-03-26,6.54564,6.83988,6.53668,6.74263,118900.0,7.31,0.0,7.6386,7.3,7.53,1.0,118900.0,2
737,2014-03-11,6.75159,6.96649,6.74263,6.91277,105900.0,7.54,0.0,7.78,7.53,7.72,1.0,105900.0,1
748,2014-02-24,6.69786,6.84104,6.61727,6.63518,126200.0,7.48,0.0,7.6399,7.39,7.41,1.0,126200.0,0
759,2014-02-06,6.48296,6.53668,6.32178,6.3576,198000.0,7.24,0.0,7.3,7.06,7.1,1.0,198000.0,3
770,2014-01-22,7.42317,7.54853,7.34258,7.50375,103800.0,8.29,0.0,8.43,8.2,8.38,1.0,103800.0,2
781,2014-01-06,7.53957,7.58434,7.30676,7.43212,70600.0,8.42,0.0,8.47,8.16,8.3,1.0,70600.0,0
792,2013-12-18,7.53062,7.79029,7.51271,7.78134,170300.0,8.41,0.0,8.7,8.39,8.69,1.0,170300.0,2
803,2013-12-03,7.88879,7.9067,7.76343,7.8082,120600.0,8.81,0.0,8.83,8.67,8.72,1.0,120600.0,1
814,2013-11-15,7.92461,7.96938,7.8082,7.8082,54600.0,8.85,0.0,8.9,8.72,8.72,1.0,54600.0,4
825,2013-10-31,8.12161,8.19324,7.88029,8.1037,150100.0,9.07,0.0,9.15,8.8005,9.05,1.0,150100.0,3
836,2013-10-16,8.07683,8.13056,7.99624,8.01415,88900.0,9.02,0.0,9.08,8.93,8.95,1.0,88900.0,2
847,2013-10-01,7.28885,7.44107,7.07395,7.13663,219100.0,8.14,0.0,8.31,7.9,7.97,1.0,219100.0,1
858,2013-09-16,6.8859,6.93963,6.63518,6.69786,255500.0,7.69,0.0,7.75,7.41,7.48,1.0,255500.0,0
869,2013-08-29,5.95465,6.00838,5.87406,5.99047,69800.0,6.65,0.0,6.71,6.56,6.69,1.0,69800.0,3
880,2013-08-14,5.78452,5.98151,5.64572,5.79347,129600.0,6.46,0.0,6.68,6.305,6.47,1.0,129600.0,2
891,2013-07-30,5.63229,5.65916,5.59657,5.61438,38900.0,6.29,0.0,6.32,6.2501,6.27,1.0,38900.0,1
902,2013-07-15,5.44425,5.48007,5.37262,5.37262,60500.0,6.08,0.0,6.12,6.0,6.0,1.0,60500.0,0
913,2013-06-27,5.40843,5.45321,5.3368,5.38157,29800.0,6.04,0.0,6.09,5.96,6.01,1.0,29800.0,3
924,2013-06-12,6.3576,6.474,6.33969,6.42923,54900.0,7.1,0.0,7.23,7.08,7.18,1.0,54900.0,2
935,2013-05-28,6.59936,6.69786,6.5143,6.69786,83400.0,7.37,0.0,7.48,7.275,7.48,1.0,83400.0,1
946,2013-05-10,7.35153,7.3963,7.19035,7.37839,47800.0,8.21,0.0,8.26,8.03,8.24,1.0,47800.0,4
957,2013-04-25,7.27094,7.38735,6.93068,6.97545,96700.0,8.12,0.0,8.25,7.74,7.79,1.0,96700.0,3
968,2013-04-10,6.85904,6.97545,6.76054,6.81427,96100.0,7.66,0.0,7.79,7.55,7.61,1.0,96100.0,2
979,2013-03-25,7.6918,7.85297,7.65598,7.82611,29500.0,8.59,0.0,8.77,8.55,8.74,1.0,29500.0,0
990,2013-03-08,8.0052,8.04102,7.79029,7.92461,139500.0,8.94,0.0,8.98,8.7,8.85,1.0,139500.0,4
1001,2013-02-21,6.82322,6.868,6.59936,6.85009,156400.0,7.62,0.0,7.67,7.37,7.65,1.0,156400.0,3
1012,2013-02-05,7.78134,7.8082,7.71866,7.78134,44300.0,8.69,0.0,8.72,8.62,8.69,1.0,44300.0,1
1023,2013-01-18,7.86193,7.99624,7.85297,7.88879,51100.0,8.78,0.0,8.93,8.77,8.81,1.0,51100.0,4
1034,2013-01-03,8.42605,8.632,8.37627,8.632,121400.0,9.41,0.0,9.64,9.3544,9.64,1.0,121400.0,3
1045,2012-12-17,8.68573,8.7305,8.60514,8.68573,197700.0,9.7,0.0,9.75,9.61,9.7,1.0,197700.0,0
1056,2012-11-30,9.27672,9.33044,9.16927,9.31254,48800.0,10.36,0.0,10.42,10.24,10.4,1.0,48800.0,4
1067,2012-11-14,9.83189,10.2527,9.82293,10.2527,77600.0,10.98,0.0,11.45,10.97,11.45,1.0,77600.0,2
1078,2012-10-26,9.59908,9.85875,9.52744,9.63489,31800.0,10.72,0.0,11.01,10.64,10.76,1.0,31800.0,4
1089,2012-10-11,9.97516,10.1184,9.95725,10.1095,52500.0,11.14,0.0,11.3,11.12,11.29,1.0,52500.0,3
1100,2012-09-26,9.25881,9.45581,9.10659,9.45581,131400.0,10.34,0.0,10.56,10.17,10.56,1.0,131400.0,2
1111,2012-09-11,10.3065,10.6467,10.2886,10.5482,111700.0,11.51,0.0,11.89,11.49,11.78,1.0,111700.0,1
1122,2012-08-24,9.48267,9.60803,9.36626,9.36626,66800.0,10.59,0.0,10.73,10.46,10.46,1.0,66800.0,4
1133,2012-08-09,8.6723,8.86482,7.93356,7.93356,157000.0,9.685,0.0,9.9,8.86,8.86,1.0,157000.0,3
1144,2012-07-25,7.78134,7.95147,7.71866,7.95147,51900.0,8.69,0.0,8.88,8.62,8.88,1.0,51900.0,2
1155,2012-07-10,7.87088,8.05893,7.82611,7.96043,102300.0,8.79,0.0,9.0,8.74,8.89,1.0,102300.0,1
1166,2012-06-22,7.36944,7.38735,7.01127,7.15453,89800.0,8.23,0.0,8.25,7.83,7.99,1.0,89800.0,4
1177,2012-06-07,8.7305,8.91854,8.68573,8.85586,77000.0,9.75,0.0,9.96,9.7,9.89,1.0,77000.0,3
1188,2012-05-22,9.47371,9.62594,9.24099,9.44685,102000.0,10.58,0.0,10.75,10.3201,10.55,1.0,102000.0,1
1199,2012-05-07,11.0049,11.6854,10.3154,11.6049,410300.0,12.29,0.0,13.05,11.52,12.96,1.0,410300.0,0
1210,2012-04-20,11.8108,12.1869,11.766,12.0347,57200.0,13.19,0.0,13.61,13.14,13.44,1.0,57200.0,4
1221,2012-04-04,11.0094,11.175,10.8527,11.1392,85500.0,12.295,0.0,12.48,12.12,12.44,1.0,85500.0,2
1232,2012-03-20,10.4497,10.5392,10.3871,10.4587,46700.0,11.67,0.0,11.7699,11.6,11.68,1.0,46700.0,1
1243,2012-03-05,10.208,10.3512,10.0647,10.3423,159400.0,11.4,0.0,11.56,11.24,11.55,1.0,159400.0,0
1254,2012-02-16,9.30358,9.34835,9.16031,9.22299,85400.0,10.39,0.0,10.44,10.23,10.3,1.0,85400.0,3
1265,2012-02-01,9.36626,9.54535,8.68573,8.80214,216800.0,10.46,0.0,10.66,9.7,9.83,1.0,216800.0,2
1276,2012-01-17,7.99624,8.30965,7.8082,7.8082,180100.0,8.93,0.0,9.28,8.72,8.72,1.0,180100.0,1
1287,2011-12-29,7.02917,7.06499,6.93963,6.96649,51300.0,7.85,0.0,7.89,7.75,7.78,1.0,51300.0,3
1298,2011-12-13,6.27701,6.79636,6.15165,6.7695,270200.0,7.01,0.0,7.59,6.87,7.56,1.0,270200.0,1
1309,2011-11-28,7.09185,7.24408,6.93963,6.93963,202000.0,7.92,0.0,8.09,7.75,7.75,1.0,202000.0,0
1320,2011-11-10,8.30069,8.67678,8.23801,8.67678,201300.0,9.27,0.0,9.69,9.2,9.69,1.0,201300.0,3
1331,2011-10-26,9.11554,9.52744,8.7305,9.44685,142500.0,10.18,0.0,10.64,9.75,10.55,1.0,142500.0,2
1342,2011-10-11,7.97834,8.12161,7.74552,7.76343,110200.0,8.91,0.0,9.07,8.65,8.67,1.0,110200.0,1
1353,2011-09-26,7.62912,7.73657,7.40526,7.73657,111000.0,8.52,0.0,8.64,8.27,8.64,1.0,111000.0,0
1364,2011-09-09,8.53351,8.87377,8.43501,8.85586,144500.0,9.53,0.0,9.91,9.42,9.89,1.0,144500.0,4
1375,2011-08-24,8.16638,8.2201,7.88879,8.03206,93500.0,9.12,0.0,9.18,8.81,8.97,1.0,93500.0,2
1386,2011-08-09,8.22906,8.73946,7.55748,8.57828,372700.0,9.19,0.0,9.76,8.44,9.58,1.0,372700.0,1
1397,2011-07-25,10.6378,10.7542,10.5044,10.5661,86800.0,11.88,0.0,12.01,11.731,11.8,1.0,86800.0,0
1408,2011-07-08,11.2198,11.3004,10.9512,11.175,102200.0,12.53,0.0,12.62,12.23,12.48,1.0,102200.0,4
1419,2011-06-22,10.2796,10.5303,10.2259,10.4676,176200.0,11.48,0.0,11.76,11.42,11.69,1.0,176200.0,2
1430,2011-06-07,12.1511,12.3302,12.0257,12.2227,68500.0,13.57,0.0,13.77,13.43,13.65,1.0,68500.0,1
1441,2011-05-20,12.0884,12.1101,11.4705,11.5332,161100.0,13.5,0.0,13.5242,12.81,12.88,1.0,161100.0,4
1452,2011-05-05,11.1482,11.5601,11.0139,11.4705,270500.0,12.45,0.0,12.91,12.3,12.81,1.0,270500.0,3
1463,2011-04-19,12.2137,12.3838,12.0884,12.3749,112200.0,13.64,0.0,13.8299,13.5,13.82,1.0,112200.0,1
1474,2011-04-04,13.7449,13.7449,13.5569,13.6464,261800.0,15.35,0.0,15.35,15.14,15.24,1.0,261800.0,0
1485,2011-03-18,12.0973,12.2675,12.0436,12.1421,143300.0,13.51,0.0,13.7,13.45,13.56,1.0,143300.0,4
1496,2011-03-03,12.9659,13.0644,12.7241,12.8764,248100.0,14.48,0.0,14.59,14.21,14.38,1.0,248100.0,3
1507,2011-02-15,13.3241,13.6733,13.1181,13.6733,511800.0,14.88,0.0,15.27,14.65,15.27,1.0,511800.0,1
1518,2011-01-31,10.8795,11.6496,10.5214,11.5064,2505500.0,12.15,0.0,13.01,11.75,12.85,1.0,2505500.0,0
1529,2011-01-13,13.8524,13.9419,13.5479,13.6554,237200.0,15.47,0.0,15.57,15.13,15.25,1.0,237200.0,3
1540,2010-12-29,14.4434,14.7022,14.1479,14.318,554400.0,16.13,0.0,16.419,15.8,15.99,1.0,554400.0,2
1551,2010-12-13,15.1597,16.0999,15.1329,15.9567,590600.0,16.93,0.0,17.9799,16.9,17.82,1.0,590600.0,0
1562,2010-11-26,14.8911,15.0433,14.6314,14.6314,459600.0,16.63,0.0,16.8,16.34,16.34,1.0,459600.0,4
1573,2010-11-10,13.6106,13.6106,13.0913,13.3957,605800.0,15.2,0.0,15.2,14.62,14.96,1.0,605800.0,2
1584,2010-10-26,9.5543,9.89833,9.36626,9.4379,379300.0,10.67,0.0,11.0542,10.46,10.54,1.0,379300.0,1
1595,2010-10-11,8.75737,8.96332,8.7305,8.86482,101000.0,9.78,0.0,10.01,9.75,9.9,1.0,101000.0,0
1606,2010-09-24,8.27383,8.27383,7.98729,8.03206,403200.0,9.24,0.0,9.24,8.92,8.97,1.0,403200.0,4
1617,2010-09-09,6.60832,6.66204,6.52773,6.60832,121000.0,7.38,0.0,7.44,7.29,7.38,1.0,121000.0,3
1628,2010-08-24,6.62623,6.70673,6.58146,6.59936,88900.0,7.4,0.0,7.4899,7.35,7.37,1.0,88900.0,1
1639,2010-08-09,6.93068,6.96649,6.83227,6.95754,101000.0,7.74,0.0,7.78,7.6301,7.77,1.0,101000.0,0
1650,2010-07-23,6.71577,6.76054,6.50087,6.52773,156000.0,7.5,0.0,7.55,7.26,7.29,1.0,156000.0,4
1661,2010-07-08,6.77845,6.78741,6.56355,6.68891,77400.0,7.57,0.0,7.58,7.33,7.47,1.0,77400.0,3
1672,2010-06-22,6.97545,7.13663,6.8859,7.03813,245900.0,7.79,0.0,7.97,7.69,7.86,1.0,245900.0,1
1683,2010-06-07,6.63518,6.76054,6.58146,6.65309,194900.0,7.41,0.0,7.55,7.35,7.43,1.0,194900.0,0
1694,2010-05-20,5.95465,6.32178,5.87406,6.31282,328100.0,6.65,0.0,7.06,6.56,7.05,1.0,328100.0,3
1705,2010-05-05,6.44266,6.63518,6.40237,6.40237,378100.0,7.195,0.0,7.41,7.15,7.15,1.0,378100.0,2
1716,2010-04-20,6.30387,6.34864,6.14269,6.14269,679700.0,7.04,0.0,7.09,6.86,6.86,1.0,679700.0,1
1727,2010-04-05,5.64125,5.65916,5.51589,5.61438,358800.0,6.3,0.0,6.32,6.16,6.27,1.0,358800.0,0
1738,2010-03-18,4.09214,4.18169,4.05633,4.14587,47600.0,4.57,0.0,4.67,4.53,4.63,1.0,47600.0,3
1749,2010-03-03,3.47429,3.4922,3.46534,3.47429,22300.0,3.88,0.0,3.9,3.87,3.88,1.0,22300.0,2
1760,2010-02-16,3.4922,3.4922,3.3937,3.42057,97200.0,3.9,0.0,3.9,3.79,3.82,1.0,97200.0,1
1771,2010-01-29,3.1788,3.38475,3.1788,3.2773,48500.0,3.55,0.0,3.78,3.55,3.66,1.0,48500.0,4
1782,2010-01-13,3.31311,3.35789,3.24148,3.28625,61500.0,3.7,0.0,3.75,3.62,3.67,1.0,61500.0,2
1793,2009-12-28,2.93703,2.99076,2.8833,2.9818,154000.0,3.28,0.0,3.34,3.22,3.33,1.0,154000.0,0
1804,2009-12-10,3.0803,3.0803,2.9818,3.00867,64200.0,3.44,0.0,3.44,3.33,3.36,1.0,64200.0,3
1815,2009-11-24,3.23252,3.31311,3.16089,3.23252,209300.0,3.61,0.0,3.7,3.53,3.61,1.0,209300.0,1
1826,2009-11-09,3.25939,3.36684,3.1788,3.32207,243300.0,3.64,0.0,3.76,3.55,3.71,1.0,243300.0,0
1837,2009-10-23,3.96678,4.13683,3.95783,4.03842,79600.0,4.43,0.0,4.6199,4.42,4.51,1.0,79600.0,4
1848,2009-10-08,3.48325,3.51011,3.41161,3.41161,144900.0,3.89,0.0,3.92,3.81,3.81,1.0,144900.0,3
1859,2009-09-23,3.21462,3.31311,3.21462,3.26834,63600.0,3.59,0.0,3.7,3.59,3.65,1.0,63600.0,2
1870,2009-09-08,3.01762,3.08925,2.97285,2.97285,112500.0,3.37,0.0,3.45,3.32,3.32,1.0,112500.0,1
1881,2009-08-21,2.8654,2.89226,2.7669,2.81167,260500.0,3.2,0.0,3.23,3.09,3.14,1.0,260500.0,4
1892,2009-08-06,2.82958,2.87435,2.61467,2.79376,341800.0,3.16,0.0,3.21,2.92,3.12,1.0,341800.0,3
1903,2009-07-22,2.64154,2.65049,2.57877,2.59676,211800.0,2.95,0.0,2.96,2.8799,2.9,1.0,211800.0,2
1914,2009-07-07,2.17591,2.27441,2.16696,2.21173,100200.0,2.43,0.0,2.54,2.42,2.47,1.0,100200.0,1
1925,2009-06-19,2.42663,2.46245,2.39081,2.41768,82400.0,2.71,0.0,2.75,2.67,2.7,1.0,82400.0,4
1936,2009-06-04,2.52513,2.55199,2.41768,2.48036,159900.0,2.82,0.0,2.85,2.7,2.77,1.0,159900.0,3
1947,2009-05-19,2.39081,2.44454,2.32813,2.34604,83000.0,2.67,0.0,2.73,2.6,2.62,1.0,83000.0,1
1958,2009-05-04,2.42672,2.48036,2.34604,2.39977,177800.0,2.7101,0.0,2.77,2.62,2.68,1.0,177800.0,0
1969,2009-04-17,2.23859,2.31023,2.20277,2.27441,138700.0,2.5,0.0,2.58,2.46,2.54,1.0,138700.0,4
1980,2009-04-01,2.4714,2.51618,2.42663,2.44454,91800.0,2.76,0.0,2.81,2.71,2.73,1.0,91800.0,2
1991,2009-03-17,2.42663,2.44454,2.32813,2.32813,162400.0,2.71,0.0,2.73,2.6,2.6,1.0,162400.0,1
2002,2009-03-02,2.13114,2.42663,2.13114,2.39977,152200.0,2.38,0.0,2.71,2.38,2.68,1.0,152200.0,0
2013,2009-02-12,2.46245,2.46245,2.33709,2.39977,117100.0,2.75,0.0,2.75,2.61,2.68,1.0,117100.0,3
2024,2009-01-28,2.6684,2.69526,2.60572,2.68631,116300.0,2.98,0.0,3.01,2.91,3.0,1.0,116300.0,2
2035,2009-01-12,2.13114,2.28336,2.11323,2.23859,189200.0,2.38,0.0,2.55,2.36,2.5,1.0,189200.0,0
2046,2008-12-24,2.01473,2.22964,1.88042,2.01473,80000.0,2.25,0.0,2.49,2.1,2.25,1.0,80000.0,2
2057,2008-12-09,1.79804,1.87146,1.79087,1.8446,63000.0,2.008,0.0,2.09,2.0,2.06,1.0,63000.0,1
2068,2008-11-21,1.54015,1.59388,1.45061,1.59388,125600.0,1.72,0.0,1.78,1.62,1.78,1.0,125600.0,4
2079,2008-11-06,2.13114,2.4535,2.04159,2.40872,339800.0,2.38,0.0,2.74,2.28,2.69,1.0,339800.0,3
2090,2008-10-22,1.62074,1.82669,1.60283,1.82669,79300.0,1.81,0.0,2.04,1.79,2.04,1.0,79300.0,2
2101,2008-10-07,2.01473,2.30127,1.96996,2.20277,319900.0,2.25,0.0,2.57,2.2,2.46,1.0,319900.0,1
2112,2008-09-22,2.83853,3.00867,2.82958,3.00867,202400.0,3.17,0.0,3.36,3.16,3.36,1.0,202400.0,0
2123,2008-09-05,3.34893,3.37579,3.25939,3.35789,148100.0,3.74,0.0,3.77,3.64,3.75,1.0,148100.0,4
2134,2008-08-20,3.65338,3.68024,3.44743,3.44743,164100.0,4.08,0.0,4.11,3.85,3.85,1.0,164100.0,2
2145,2008-08-05,3.51906,3.58174,3.44743,3.4922,217700.0,3.93,0.0,4.0,3.85,3.9,1.0,217700.0,1
2156,2008-07-21,3.97574,3.98469,3.8056,3.9041,421900.0,4.44,0.0,4.45,4.25,4.36,1.0,421900.0,0
2167,2008-07-03,4.34287,4.47718,4.316,4.47718,131900.0,4.85,0.0,5.0,4.82,5.0,1.0,131900.0,3
2178,2008-06-18,4.77267,4.79058,4.60254,4.6294,273000.0,5.33,0.0,5.35,5.14,5.17,1.0,273000.0,2
2189,2008-06-03,4.52195,4.68313,4.48614,4.63836,133600.0,5.05,0.0,5.23,5.01,5.18,1.0,133600.0,1
2200,2008-05-16,4.47718,4.55777,4.36077,4.38764,268800.0,5.0,0.0,5.09,4.87,4.9,1.0,268800.0,4
2211,2008-05-01,4.11005,4.13691,3.98469,4.07423,219400.0,4.59,0.0,4.62,4.45,4.55,1.0,219400.0,3
2222,2008-04-16,4.4145,4.50404,4.19064,4.19064,221900.0,4.93,0.0,5.03,4.68,4.68,1.0,221900.0,2
2233,2008-04-01,4.35182,4.40555,4.30705,4.36973,85700.0,4.86,0.0,4.92,4.81,4.88,1.0,85700.0,1
2244,2008-03-14,4.39659,4.57568,4.36077,4.55777,188900.0,4.91,0.0,5.11,4.87,5.09,1.0,188900.0,4
2255,2008-02-28,5.08608,5.19353,4.90699,4.90699,398400.0,5.68,0.0,5.8,5.48,5.48,1.0,398400.0,3
2266,2008-02-12,4.54882,4.58463,4.47718,4.47718,127400.0,5.08,0.0,5.12,5.0,5.0,1.0,127400.0,1
2277,2008-01-28,4.23541,4.28914,4.02946,4.03842,189900.0,4.73,0.0,4.79,4.5,4.51,1.0,189900.0,0
2288,2008-01-10,4.64731,4.8264,4.55777,4.8264,157500.0,5.19,0.0,5.39,5.09,5.39,1.0,157500.0,3
2299,2007-12-24,4.59359,4.70104,4.47718,4.70104,82100.0,5.13,0.0,5.25,5.0,5.25,1.0,82100.0,0
2310,2007-12-07,4.77267,4.81745,4.68313,4.71895,145800.0,5.33,0.0,5.38,5.23,5.27,1.0,145800.0,4
2321,2007-11-21,4.78163,4.96967,4.70104,4.96967,196100.0,5.34,0.0,5.55,5.25,5.55,1.0,196100.0,2
2332,2007-11-06,5.10399,5.14876,4.88908,4.96967,479800.0,5.7,0.0,5.75,5.46,5.55,1.0,479800.0,1
2343,2007-10-22,4.78163,4.88013,4.65627,4.83536,427600.0,5.34,0.0,5.45,5.2,5.4,1.0,427600.0,0
2354,2007-10-05,4.54201,4.56672,4.34287,4.44136,192300.0,5.0724,0.0,5.1,4.85,4.96,1.0,192300.0,4
2365,2007-09-20,4.19279,4.28018,4.13691,4.28018,153900.0,4.6824,0.0,4.78,4.62,4.78,1.0,153900.0,3
2376,2007-09-05,3.60861,3.67129,3.56384,3.66233,85500.0,4.03,0.0,4.1,3.98,4.09,1.0,85500.0,2
2387,2007-08-20,3.38475,3.53697,3.34893,3.4922,153200.0,3.78,0.0,3.95,3.74,3.9,1.0,153200.0,0
2398,2007-08-03,3.86828,3.93096,3.73397,3.86828,285900.0,4.32,0.0,4.39,4.17,4.32,1.0,285900.0,4
2409,2007-07-19,4.80849,4.80849,4.67418,4.71895,321200.0,5.37,0.0,5.37,5.22,5.27,1.0,321200.0,3
2420,2007-07-03,3.97538,4.02946,3.96678,4.02946,98100.0,4.4396,0.0,4.5,4.43,4.5,1.0,98100.0,1
2431,2007-06-18,3.51906,3.56384,3.50116,3.50116,98700.0,3.93,0.0,3.98,3.91,3.91,1.0,98700.0,0
2442,2007-06-01,3.5907,3.62652,3.54593,3.57279,228400.0,4.01,0.0,4.05,3.96,3.99,1.0,228400.0,4
2453,2007-05-16,3.41161,3.46534,3.41161,3.46534,164600.0,3.81,0.0,3.87,3.81,3.87,1.0,164600.0,2
2464,2007-05-01,3.66233,3.99365,3.59965,3.92201,441700.0,4.09,0.0,4.46,4.02,4.38,1.0,441700.0,1
2475,2007-04-16,3.51011,3.58174,3.50116,3.53697,328800.0,3.92,0.0,4.0,3.91,3.95,1.0,328800.0,0
2486,2007-03-29,3.45638,3.48235,3.40266,3.47429,148500.0,3.86,0.0,3.889,3.8,3.88,1.0,148500.0,3
2497,2007-03-14,3.73397,3.83247,3.69815,3.83247,236000.0,4.17,0.0,4.28,4.13,4.28,1.0,236000.0,2
2508,2007-02-27,3.97574,4.08319,3.91306,4.08319,162700.0,4.44,0.0,4.56,4.37,4.56,1.0,162700.0,1
2519,2007-02-09,4.16378,4.28914,4.16378,4.28018,94800.0,4.65,0.0,4.79,4.65,4.78,1.0,94800.0,4
2530,2007-01-25,4.35182,4.6294,4.32496,4.6115,260500.0,4.86,0.0,5.17,4.83,5.15,1.0,260500.0,3
2541,2007-01-09,4.32496,4.46823,4.20855,4.30705,387700.0,4.83,0.0,4.99,4.7,4.81,1.0,387700.0,1
2552,2006-12-20,4.53091,4.68313,4.513,4.68313,163500.0,5.06,0.0,5.23,5.04,5.23,1.0,163500.0,2
2563,2006-12-05,4.56672,4.57568,4.52195,4.54882,88700.0,5.1,0.0,5.11,5.05,5.08,1.0,88700.0,1
2574,2006-11-17,4.67418,4.68367,4.30705,4.30705,439100.0,5.22,0.0,5.2306,4.81,4.81,1.0,439100.0,4
2585,2006-11-02,4.08319,4.19064,4.04737,4.18169,88500.0,4.56,0.0,4.68,4.52,4.67,1.0,88500.0,3
2596,2006-10-18,4.28018,4.30705,4.16378,4.30705,79600.0,4.78,0.0,4.81,4.65,4.81,1.0,79600.0,2
2607,2006-10-03,4.15482,4.29809,4.08319,4.29809,114600.0,4.64,0.0,4.8,4.56,4.8,1.0,114600.0,1
2618,2006-09-18,4.22646,4.28018,4.11005,4.11901,124700.0,4.72,0.0,4.78,4.59,4.6,1.0,124700.0,0
2629,2006-08-31,4.34287,4.43241,4.29809,4.38764,309900.0,4.85,0.0,4.95,4.8,4.9,1.0,309900.0,3
2640,2006-08-16,4.29809,4.34287,4.26228,4.30705,69300.0,4.8,0.0,4.85,4.76,4.81,1.0,69300.0,2
2651,2006-08-01,4.22646,4.47718,4.22646,4.40555,329700.0,4.72,0.0,5.0,4.72,4.92,1.0,329700.0,1
2662,2006-07-17,4.32496,4.47718,4.30705,4.47718,106500.0,4.83,0.0,5.0,4.81,5.0,1.0,106500.0,0
2673,2006-06-29,4.15482,4.20855,4.06528,4.19064,239300.0,4.64,0.0,4.7,4.54,4.68,1.0,239300.0,3
2684,2006-06-14,4.03842,4.09214,3.69815,3.85038,286100.0,4.51,0.0,4.57,4.13,4.3,1.0,286100.0,2
2695,2006-05-30,4.55777,4.69209,4.53091,4.6115,109100.0,5.09,0.0,5.24,5.06,5.15,1.0,109100.0,1
2706,2006-05-12,4.88013,5.10399,4.87117,5.0234,208600.0,5.45,0.0,5.7,5.44,5.61,1.0,208600.0,4
2717,2006-04-27,5.30098,5.38157,5.22039,5.34575,209000.0,5.92,0.0,6.01,5.83,5.97,1.0,209000.0,3
2728,2006-04-11,5.27412,5.5517,5.19353,5.46216,586900.0,5.89,0.0,6.2,5.8,6.1,1.0,586900.0,1
2739,2006-03-27,4.87117,4.95176,4.85326,4.9249,239400.0,5.44,0.0,5.53,5.42,5.5,1.0,239400.0,0
2750,2006-03-10,4.94281,4.96072,4.87117,4.90699,170900.0,5.52,0.0,5.54,5.44,5.48,1.0,170900.0,4
2761,2006-02-23,5.09503,5.17562,5.04131,5.09503,205500.0,5.69,0.0,5.78,5.63,5.69,1.0,205500.0,3
2772,2006-02-07,5.45321,5.67707,5.28307,5.67707,569700.0,6.09,0.0,6.34,5.9,6.34,1.0,569700.0,1
2783,2006-01-23,4.83536,4.90699,4.70104,4.70104,436200.0,5.4,0.0,5.48,5.25,5.25,1.0,436200.0,0
2794,2006-01-05,4.57568,4.65627,4.53091,4.65627,304300.0,5.11,0.0,5.2,5.06,5.2,1.0,304300.0,3
2805,2005-12-19,4.81745,5.01444,4.78163,4.84431,273600.0,5.38,0.0,5.6,5.34,5.41,1.0,273600.0,0
2816,2005-12-02,4.63836,4.79058,4.62045,4.70999,292300.0,5.18,0.0,5.35,5.16,5.26,1.0,292300.0,4
2827,2005-11-16,4.67418,4.69209,4.47718,4.49509,263700.0,5.22,0.0,5.24,5.0,5.02,1.0,263700.0,2
2838,2005-11-01,4.79954,4.80849,4.34287,4.34287,710300.0,5.36,0.0,5.37,4.85,4.85,1.0,710300.0,1
2849,2005-10-17,4.80849,4.99653,4.79058,4.88013,191700.0,5.37,0.0,5.58,5.35,5.45,1.0,191700.0,0
2860,2005-09-30,5.63229,5.68602,5.60543,5.66811,182500.0,6.29,0.0,6.35,6.26,6.33,1.0,182500.0,4
2871,2005-09-15,5.34575,5.45321,5.27412,5.45321,295800.0,5.97,0.0,6.09,5.89,6.09,1.0,295800.0,3
2882,2005-08-30,5.59648,5.73975,5.50693,5.65916,249300.0,6.25,0.0,6.41,6.15,6.32,1.0,249300.0,1
2893,2005-08-15,5.70393,5.90092,5.68602,5.85615,170800.0,6.37,0.0,6.59,6.35,6.54,1.0,170800.0,0
2904,2005-07-29,6.04419,6.22328,5.82929,5.86511,932000.0,6.75,0.0,6.95,6.51,6.55,1.0,932000.0,4
2915,2005-07-14,5.88302,6.11583,5.8472,6.0621,456600.0,6.57,0.0,6.83,6.53,6.77,1.0,456600.0,3
2926,2005-06-28,5.88302,6.54564,5.82033,6.48296,1329600.0,6.57,0.0,7.31,6.5,7.24,1.0,1329600.0,1
2937,2005-06-13,5.78452,5.82033,5.68602,5.73975,487900.0,6.46,0.0,6.5,6.35,6.41,1.0,487900.0,0
2948,2005-05-26,4.45927,4.47718,4.08319,4.08319,461500.0,4.98,0.0,5.0,4.56,4.56,1.0,461500.0,3
2959,2005-05-11,4.74581,4.94281,4.70104,4.88013,180000.0,5.3,0.0,5.52,5.25,5.45,1.0,180000.0,2
2970,2005-04-26,5.46216,5.49798,5.28307,5.30994,694200.0,6.1,0.0,6.14,5.9,5.93,1.0,694200.0,1
2981,2005-04-11,5.38157,5.50693,5.25621,5.50693,531400.0,6.01,0.0,6.15,5.87,6.15,1.0,531400.0,0
2992,2005-03-24,5.59648,5.79347,5.47111,5.59648,324700.0,6.25,0.0,6.47,6.11,6.25,1.0,324700.0,3
3003,2005-03-09,6.42028,6.671,6.18746,6.20537,955300.0,7.17,0.0,7.45,6.91,6.93,1.0,955300.0,2
3014,2005-02-22,7.5933,8.59619,7.43212,8.32756,1893100.0,8.48,0.0,9.6,8.3,9.3,1.0,1893100.0,1
3025,2005-02-04,6.1606,6.26805,6.00838,6.01733,503700.0,6.88,0.0,7.0,6.71,6.72,1.0,503700.0,4
3036,2005-01-20,5.12189,5.19353,5.00549,5.10399,302500.0,5.72,0.0,5.8,5.59,5.7,1.0,302500.0,3
3047,2005-01-04,4.25332,4.45927,4.16378,4.45927,262800.0,4.75,0.0,4.98,4.65,4.98,1.0,262800.0,1
3058,2004-12-17,4.52195,4.65627,4.47718,4.65627,362900.0,5.05,0.0,5.2,5.0,5.2,1.0,362900.0,4
3069,2004-12-02,4.46823,4.78163,4.32496,4.76372,1089500.0,4.99,0.0,5.34,4.83,5.32,1.0,1089500.0,3
3080,2004-11-16,3.28625,3.31311,3.23252,3.23252,254700.0,3.67,0.0,3.7,3.61,3.61,1.0,254700.0,1
3091,2004-11-01,3.40266,3.51906,3.37579,3.45638,157400.0,3.8,0.0,3.93,3.77,3.86,1.0,157400.0,0
3102,2004-10-15,3.51011,3.58174,3.44743,3.56384,224400.0,3.92,0.0,4.0,3.85,3.98,1.0,224400.0,4
3113,2004-09-30,2.91017,2.97285,2.77585,2.80272,341800.0,3.25,0.0,3.32,3.1,3.13,1.0,341800.0,3
3124,2004-09-15,2.07741,2.08637,2.03264,2.06846,95600.0,2.32,0.0,2.33,2.27,2.31,1.0,95600.0,2
3135,2004-08-30,2.10427,2.14905,2.09532,2.10427,52200.0,2.35,0.0,2.4,2.34,2.35,1.0,52200.0,0
3146,2004-08-13,2.14009,2.158,2.11323,2.13114,163400.0,2.39,0.0,2.41,2.36,2.38,1.0,163400.0,4
3157,2004-07-29,2.158,2.26545,2.06846,2.22068,350000.0,2.41,0.0,2.53,2.31,2.48,1.0,350000.0,3
3168,2004-07-14,2.38186,2.39977,2.28336,2.29232,238200.0,2.66,0.0,2.68,2.55,2.56,1.0,238200.0,2
3179,2004-06-28,2.355,2.43559,2.32813,2.38186,78000.0,2.63,0.0,2.72,2.6,2.66,1.0,78000.0,0
3190,2004-06-10,2.08637,2.10427,1.98787,1.98787,134300.0,2.33,0.0,2.35,2.22,2.22,1.0,134300.0,3
3201,2004-05-25,2.03264,2.07741,2.01473,2.06846,125200.0,2.27,0.0,2.32,2.25,2.31,1.0,125200.0,1
3212,2004-05-10,1.88042,2.01473,1.77296,2.01473,396700.0,2.1,0.0,2.25,1.98,2.25,1.0,396700.0,0
3223,2004-04-23,2.30127,2.32813,2.24754,2.26545,174800.0,2.57,0.0,2.6,2.51,2.53,1.0,174800.0,4
3234,2004-04-07,2.61467,2.62363,2.48931,2.48931,929600.0,2.92,0.0,2.93,2.78,2.78,1.0,929600.0,2
3245,2004-03-23,2.10427,2.16696,2.04159,2.16696,128300.0,2.35,0.0,2.42,2.28,2.42,1.0,128300.0,1
3256,2004-03-08,2.4535,2.57886,2.44454,2.49827,259000.0,2.74,0.0,2.88,2.73,2.79,1.0,259000.0,0
3267,2004-02-20,2.13114,2.14009,2.05055,2.07741,141800.0,2.38,0.0,2.39,2.29,2.32,1.0,141800.0,4
3278,2004-02-04,1.93414,2.19382,1.93414,2.19382,277600.0,2.16,0.0,2.45,2.16,2.45,1.0,277600.0,2
3289,2004-01-20,2.5699,2.67735,2.51618,2.67735,444500.0,2.87,0.0,2.99,2.81,2.99,1.0,444500.0,1
3300,2004-01-02,2.2565,2.27441,2.19382,2.22068,386600.0,2.52,0.0,2.54,2.45,2.48,1.0,386600.0,4
3311,2003-12-16,2.14905,2.16696,1.98787,1.98787,755700.0,2.4,0.0,2.42,2.22,2.22,1.0,755700.0,1
3322,2003-12-01,1.5312,1.56701,1.45956,1.56701,198200.0,1.71,0.0,1.75,1.63,1.75,1.0,198200.0,0
3333,2003-11-13,1.29838,1.37897,1.25361,1.37897,234100.0,1.45,0.0,1.54,1.4,1.54,1.0,234100.0,3
3344,2003-10-29,1.00289,1.01184,0.98498,1.01184,58100.0,1.12,0.0,1.13,1.1,1.13,1.0,58100.0,2
3355,2003-10-14,1.1193,1.18198,1.07452,1.11034,623700.0,1.25,0.0,1.32,1.2,1.24,1.0,623700.0,1
3366,2003-09-29,0.904391,0.913345,0.850664,0.850664,163000.0,1.01,0.0,1.02,0.95,0.95,1.0,163000.0,0
3377,2003-09-12,0.895436,0.922299,0.877527,0.904391,119000.0,1.0,0.0,1.03,0.98,1.01,1.0,119000.0,4
3388,2003-08-27,0.752166,0.752166,0.707395,0.725303,55500.0,0.84,0.0,0.84,0.79,0.81,1.0,55500.0,2
3399,2003-08-12,0.671577,0.725303,0.644714,0.716349,321700.0,0.75,0.0,0.81,0.72,0.8,1.0,321700.0,1
3410,2003-07-28,0.465627,0.465627,0.456672,0.465627,65300.0,0.52,0.0,0.52,0.51,0.52,1.0,65300.0,0
3421,2003-07-11,0.438764,0.456672,0.438764,0.456672,10700.0,0.49,0.0,0.51,0.49,0.51,1.0,10700.0,4
3432,2003-06-25,0.447718,0.447718,0.429809,0.447718,24700.0,0.5,0.0,0.5,0.48,0.5,1.0,24700.0,2
3443,2003-06-10,0.438764,0.474581,0.438764,0.438764,81900.0,0.49,0.0,0.53,0.49,0.49,1.0,81900.0,1
3454,2003-05-23,0.447718,0.447718,0.429809,0.438764,213600.0,0.5,0.0,0.5,0.48,0.49,1.0,213600.0,4
3465,2003-05-08,0.429809,0.447718,0.429809,0.447718,21000.0,0.48,0.0,0.5,0.48,0.5,1.0,21000.0,3
3476,2003-04-23,0.429809,0.429809,0.411901,0.411901,5000.0,0.48,0.0,0.48,0.46,0.46,1.0,5000.0,2
3487,2003-04-07,0.420855,0.438764,0.411901,0.411901,10800.0,0.47,0.0,0.49,0.46,0.46,1.0,10800.0,0
3498,2003-03-21,0.429809,0.429809,0.402946,0.429809,46800.0,0.48,0.0,0.48,0.45,0.48,1.0,46800.0,4
3509,2003-03-06,0.411901,0.411901,0.376083,0.393992,11800.0,0.46,0.0,0.46,0.42,0.44,1.0,11800.0,3
3520,2003-02-19,0.358174,0.358174,0.340266,0.340266,18600.0,0.4,0.0,0.4,0.38,0.38,1.0,18600.0,2
3531,2003-02-03,0.358174,0.358174,0.358174,0.358174,15000.0,0.4,0.0,0.4,0.4,0.4,1.0,15000.0,0
3542,2003-01-16,0.385038,0.393992,0.376083,0.393992,37400.0,0.43,0.0,0.44,0.42,0.44,1.0,37400.0,3
3553,2002-12-31,0.358174,0.367129,0.331311,0.367129,77800.0,0.4,0.0,0.41,0.37,0.41,1.0,77800.0,1
3564,2002-12-13,0.358174,0.393992,0.358174,0.393992,24400.0,0.4,0.0,0.44,0.4,0.44,1.0,24400.0,4
3575,2002-11-27,0.277585,0.277585,0.259676,0.259676,35400.0,0.31,0.0,0.31,0.29,0.29,1.0,35400.0,2
3586,2002-11-12,0.268631,0.322357,0.268631,0.268631,7400.0,0.3,0.0,0.36,0.3,0.3,1.0,7400.0,1
3597,2002-10-28,0.295494,0.304448,0.28654,0.304448,46400.0,0.33,0.0,0.34,0.32,0.34,1.0,46400.0,0
3608,2002-10-11,0.28654,0.331311,0.268631,0.331311,69100.0,0.32,0.0,0.37,0.3,0.37,1.0,69100.0,4
3619,2002-09-26,0.322357,0.322357,0.322357,0.322357,0.0,0.36,0.0,0.36,0.36,0.36,1.0,0.0,3
3630,2002-09-11,0.268631,0.268631,0.268631,0.268631,2500.0,0.3,0.0,0.3,0.3,0.3,1.0,2500.0,2
3641,2002-08-26,0.28654,0.295494,0.259676,0.268631,101000.0,0.32,0.0,0.33,0.29,0.3,1.0,101000.0,0
3652,2002-08-09,0.259676,0.259676,0.259676,0.259676,2500.0,0.29,0.0,0.29,0.29,0.29,1.0,2500.0,4
3663,2002-07-25,0.259676,0.259676,0.241768,0.241768,19000.0,0.29,0.0,0.29,0.27,0.27,1.0,19000.0,3
3674,2002-07-10,0.268631,0.268631,0.268631,0.268631,2000.0,0.3,0.0,0.3,0.3,0.3,1.0,2000.0,2
3685,2002-06-24,0.340266,0.340266,0.331311,0.331311,2900.0,0.38,0.0,0.38,0.37,0.37,1.0,2900.0,0
3696,2002-06-07,0.313403,0.340266,0.304448,0.322357,39100.0,0.35,0.0,0.38,0.34,0.36,1.0,39100.0,4
3707,2002-05-22,0.322357,0.34922,0.322357,0.34922,45900.0,0.36,0.0,0.39,0.36,0.39,1.0,45900.0,2
3718,2002-05-07,0.295494,0.313403,0.268631,0.277585,48500.0,0.33,0.0,0.35,0.3,0.31,1.0,48500.0,1
3729,2002-04-22,0.322357,0.322357,0.322357,0.322357,0.0,0.36,0.0,0.36,0.36,0.36,1.0,0.0,0
3740,2002-04-05,0.34922,0.34922,0.304448,0.340266,122000.0,0.39,0.0,0.39,0.34,0.38,1.0,122000.0,4
3751,2002-03-20,0.304448,0.304448,0.304448,0.304448,2000.0,0.34,0.0,0.34,0.34,0.34,1.0,2000.0,2
3762,2002-03-05,0.232813,0.250722,0.214905,0.241768,18000.0,0.26,0.0,0.28,0.24,0.27,1.0,18000.0,1
3773,2002-02-15,0.304448,0.304448,0.268631,0.268631,31000.0,0.34,0.0,0.34,0.3,0.3,1.0,31000.0,4
3784,2002-01-31,0.313403,0.313403,0.313403,0.313403,5000.0,0.35,0.0,0.35,0.35,0.35,1.0,5000.0,3
3795,2002-01-15,0.358174,0.376083,0.358174,0.376083,32700.0,0.4,0.0,0.42,0.4,0.42,1.0,32700.0,1
3806,2001-12-28,0.322357,0.331311,0.277585,0.277585,115100.0,0.36,0.0,0.37,0.31,0.31,1.0,115100.0,4
3817,2001-12-12,0.277585,0.295494,0.277585,0.295494,48900.0,0.31,0.0,0.33,0.31,0.33,1.0,48900.0,2
3828,2001-11-27,0.241768,0.250722,0.196996,0.250722,101000.0,0.27,0.0,0.28,0.22,0.28,1.0,101000.0,1
3839,2001-11-09,0.250722,0.250722,0.223859,0.223859,28500.0,0.28,0.0,0.28,0.25,0.25,1.0,28500.0,4
3850,2001-10-25,0.179087,0.179087,0.152224,0.152224,6000.0,0.2,0.0,0.2,0.17,0.17,1.0,6000.0,3
3861,2001-10-10,0.170133,0.179087,0.170133,0.170133,22000.0,0.19,0.0,0.2,0.19,0.19,1.0,22000.0,2
3872,2001-09-25,0.170133,0.196996,0.170133,0.196996,18500.0,0.19,0.0,0.22,0.19,0.22,1.0,18500.0,1
3883,2001-09-04,0.241768,0.259676,0.241768,0.259676,17000.0,0.27,0.0,0.29,0.27,0.29,1.0,17000.0,1
3894,2001-08-17,0.232813,0.250722,0.232813,0.241768,24700.0,0.26,0.0,0.28,0.26,0.27,1.0,24700.0,4
3905,2001-08-02,0.268631,0.268631,0.268631,0.268631,6400.0,0.3,0.0,0.3,0.3,0.3,1.0,6400.0,3
3916,2001-07-18,0.241768,0.268631,0.241768,0.268631,13100.0,0.27,0.0,0.3,0.27,0.3,1.0,13100.0,2
3927,2001-07-02,0.28654,0.28654,0.277585,0.277585,36400.0,0.32,0.0,0.32,0.31,0.31,1.0,36400.0,0
3938,2001-06-15,0.322357,0.322357,0.295494,0.295494,39500.0,0.36,0.0,0.36,0.33,0.33,1.0,39500.0,4
3949,2001-05-31,0.358174,0.358174,0.358174,0.358174,1000.0,0.4,0.0,0.4,0.4,0.4,1.0,1000.0,3
3960,2001-05-15,0.304448,0.331311,0.304448,0.322357,62500.0,0.34,0.0,0.37,0.34,0.36,1.0,62500.0,1
3971,2001-04-30,0.34922,0.34922,0.331311,0.331311,28800.0,0.39,0.0,0.39,0.37,0.37,1.0,28800.0,0
3982,2001-04-12,0.313403,0.313403,0.295494,0.295494,20000.0,0.35,0.0,0.35,0.33,0.33,1.0,20000.0,3
3993,2001-03-28,0.223859,0.268631,0.223859,0.250722,113500.0,0.25,0.0,0.3,0.25,0.28,1.0,113500.0,2
4004,2001-03-13,0.34922,0.34922,0.322357,0.34922,9600.0,0.39,0.0,0.39,0.36,0.39,1.0,9600.0,1
4015,2001-02-26,0.393992,0.402946,0.367129,0.367129,227800.0,0.44,0.0,0.45,0.41,0.41,1.0,227800.0,0
4026,2001-02-08,0.376083,0.376083,0.376083,0.376083,10200.0,0.42,0.0,0.42,0.42,0.42,1.0,10200.0,3
4037,2001-01-24,0.340266,0.367129,0.340266,0.367129,5500.0,0.38,0.0,0.41,0.38,0.41,1.0,5500.0,2
4048,2001-01-08,0.393992,0.393992,0.393992,0.393992,0.0,0.44,0.0,0.44,0.44,0.44,1.0,0.0,0
4059,2000-12-20,0.393992,0.420855,0.393992,0.393992,18900.0,0.44,0.0,0.47,0.44,0.44,1.0,18900.0,2
4070,2000-12-05,0.447718,0.49249,0.429809,0.49249,17900.0,0.5,0.0,0.55,0.48,0.55,1.0,17900.0,1
4081,2000-11-17,0.626805,0.644714,0.590988,0.644714,29600.0,0.7,0.0,0.72,0.66,0.72,1.0,29600.0,4
4092,2000-11-02,0.752166,0.823801,0.752166,0.787984,43500.0,0.84,0.0,0.92,0.84,0.88,1.0,43500.0,3
4103,2000-10-18,0.787984,0.823801,0.752166,0.787984,74800.0,0.88,0.0,0.92,0.84,0.88,1.0,74800.0,2
4114,2000-10-03,0.55517,0.626805,0.55517,0.626805,35500.0,0.62,0.0,0.7,0.62,0.7,1.0,35500.0,1
4125,2000-09-18,0.617851,0.626805,0.590988,0.617851,26100.0,0.69,0.0,0.7,0.66,0.69,1.0,26100.0,0
4136,2000-08-31,0.599942,0.626805,0.55517,0.626805,120200.0,0.67,0.0,0.7,0.62,0.7,1.0,120200.0,3
4147,2000-08-16,0.447718,0.447718,0.429809,0.447718,40000.0,0.5,0.0,0.5,0.48,0.5,1.0,40000.0,2
4158,2000-08-01,0.402946,0.402946,0.367129,0.367129,47500.0,0.45,0.0,0.45,0.41,0.41,1.0,47500.0,1
4169,2000-07-17,0.420855,0.465627,0.402946,0.447718,47700.0,0.47,0.0,0.52,0.45,0.5,1.0,47700.0,0
4180,2000-06-29,0.447718,0.49249,0.447718,0.49249,30900.0,0.5,0.0,0.55,0.5,0.55,1.0,30900.0,3
4191,2000-06-14,0.447718,0.447718,0.393992,0.402946,17600.0,0.5,0.0,0.5,0.44,0.45,1.0,17600.0,2
4202,2000-05-30,0.465627,0.474581,0.376083,0.376083,43600.0,0.52,0.0,0.53,0.42,0.42,1.0,43600.0,1
4213,2000-05-12,0.447718,0.501444,0.402946,0.501444,94000.0,0.5,0.0,0.56,0.45,0.56,1.0,94000.0,4
4224,2000-04-27,0.55517,0.617851,0.55517,0.617851,22000.0,0.62,0.0,0.69,0.62,0.69,1.0,22000.0,3
4235,2000-04-11,0.55517,0.55517,0.49249,0.55517,32300.0,0.62,0.0,0.62,0.55,0.62,1.0,32300.0,1
4246,2000-03-27,0.528307,0.617851,0.528307,0.590988,33800.0,0.59,0.0,0.69,0.59,0.66,1.0,33800.0,0
4257,2000-03-10,0.402946,0.465627,0.295494,0.295494,128500.0,0.45,0.0,0.52,0.33,0.33,1.0,128500.0,4
4268,2000-02-24,0.304448,0.304448,0.304448,0.304448,25000.0,0.34,0.0,0.34,0.34,0.34,1.0,25000.0,3
4279,2000-02-08,0.420855,0.447718,0.420855,0.447718,61500.0,0.47,0.0,0.5,0.47,0.5,1.0,61500.0,1
4290,2000-01-24,0.34922,0.34922,0.304448,0.34922,54600.0,0.39,0.0,0.39,0.34,0.39,1.0,54600.0,0
4301,2000-01-06,0.277585,0.376083,0.277585,0.376083,31700.0,0.31,0.0,0.42,0.31,0.42,1.0,31700.0,3
4312,1999-12-21,0.367129,0.376083,0.322357,0.322357,56200.0,0.41,0.0,0.42,0.36,0.36,1.0,56200.0,1
4323,1999-12-06,0.304448,0.393992,0.304448,0.304448,3700.0,0.34,0.0,0.44,0.34,0.34,1.0,3700.0,0
4334,1999-11-18,0.268631,0.376083,0.268631,0.304448,20700.0,0.3,0.0,0.42,0.3,0.34,1.0,20700.0,3
4345,1999-11-03,0.322357,0.340266,0.304448,0.322357,127500.0,0.36,0.0,0.38,0.34,0.36,1.0,127500.0,2
4356,1999-10-19,0.322357,0.322357,0.322357,0.322357,500.0,0.36,0.0,0.36,0.36,0.36,1.0,500.0,1
4367,1999-10-04,0.304448,0.304448,0.304448,0.304448,200.0,0.34,0.0,0.34,0.34,0.34,1.0,200.0,0
4378,1999-09-17,0.367129,0.367129,0.367129,0.367129,4000.0,0.41,0.0,0.41,0.41,0.41,1.0,4000.0,4
4389,1999-09-01,0.393992,0.402946,0.393992,0.402946,11500.0,0.44,0.0,0.45,0.44,0.45,1.0,11500.0,2
4400,1999-08-17,0.367129,0.393992,0.367129,0.393992,16900.0,0.41,0.0,0.44,0.41,0.44,1.0,16900.0,1
4411,1999-08-02,0.367129,0.393992,0.34922,0.34922,123800.0,0.41,0.0,0.44,0.39,0.39,1.0,123800.0,0
4422,1999-07-16,0.268631,0.268631,0.241768,0.241768,10000.0,0.3,0.0,0.3,0.27,0.27,1.0,10000.0,4
4433,1999-06-30,0.295494,0.295494,0.268631,0.295494,9200.0,0.33,0.0,0.33,0.3,0.33,1.0,9200.0,2
4444,1999-06-15,0.268631,0.277585,0.241768,0.277585,99500.0,0.3,0.0,0.31,0.27,0.31,1.0,99500.0,1
4455,1999-05-28,0.304448,0.304448,0.304448,0.304448,15200.0,0.34,0.0,0.34,0.34,0.34,1.0,15200.0,4
4466,1999-05-13,0.170133,0.170133,0.170133,0.170133,0.0,0.19,0.0,0.19,0.19,0.19,1.0,0.0,3
4477,1999-04-28,0.152224,0.152224,0.125361,0.152224,27900.0,0.17,0.0,0.17,0.14,0.17,1.0,27900.0,2
4488,1999-04-13,0.14327,0.14327,0.107452,0.107452,21200.0,0.16,0.0,0.16,0.12,0.12,1.0,21200.0,1
4499,1999-03-26,0.14327,0.14327,0.14327,0.14327,0.0,0.16,0.0,0.16,0.16,0.16,1.0,0.0,4
4510,1999-03-11,0.196996,0.20595,0.179087,0.196996,26500.0,0.22,0.0,0.23,0.2,0.22,1.0,26500.0,3
4521,1999-02-24,0.170133,0.170133,0.170133,0.170133,4600.0,0.19,0.0,0.19,0.19,0.19,1.0,4600.0,2
4532,1999-02-08,0.196996,0.196996,0.170133,0.179087,30000.0,0.22,0.0,0.22,0.19,0.2,1.0,30000.0,0
4543,1999-01-22,0.170133,0.170133,0.170133,0.170133,0.0,0.19,0.0,0.19,0.19,0.19,1.0,0.0,4
4554,1999-01-06,0.170133,0.196996,0.170133,0.196996,1100.0,0.19,0.0,0.22,0.19,0.22,1.0,1100.0,2
4565,1998-12-18,0.14327,0.170133,0.14327,0.170133,7300.0,0.16,0.0,0.19,0.16,0.19,1.0,7300.0,4
4576,1998-12-03,0.125361,0.125361,0.125361,0.125361,5100.0,0.14,0.0,0.14,0.14,0.14,1.0,5100.0,3
4587,1998-11-17,0.107452,0.125361,0.107452,0.125361,7300.0,0.12,0.0,0.14,0.12,0.14,1.0,7300.0,1
4598,1998-11-02,0.14327,0.170133,0.107452,0.170133,231400.0,0.16,0.0,0.19,0.12,0.19,1.0,231400.0,0
4609,1998-10-16,0.107452,0.107452,0.107452,0.107452,1200.0,0.12,0.0,0.12,0.12,0.12,1.0,1200.0,4
4620,1998-10-01,0.170133,0.170133,0.170133,0.170133,900.0,0.19,0.0,0.19,0.19,0.19,1.0,900.0,3
4631,1998-09-16,0.139912,0.167894,0.0979428,0.11193,615400.0,0.15625,0.0,0.1875,0.10938,0.125,1.0,615400.0,2
4642,1998-08-31,0.179087,0.268631,0.179087,0.223859,22000.0,0.2,0.0,0.3,0.2,0.25,1.0,22000.0,0
4653,1998-08-14,0.277585,0.277585,0.277585,0.277585,31000.0,0.31,0.0,0.31,0.31,0.31,1.0,31000.0,4
4664,1998-07-30,0.340266,0.340266,0.340266,0.340266,4300.0,0.38,0.0,0.38,0.38,0.38,1.0,4300.0,3
4675,1998-07-15,0.420855,0.528307,0.420855,0.528307,86900.0,0.47,0.0,0.59,0.47,0.59,1.0,86900.0,2
4686,1998-06-29,0.501444,0.501444,0.501444,0.501444,2200.0,0.56,0.0,0.56,0.56,0.56,1.0,2200.0,0
4697,1998-06-12,0.617851,0.617851,0.590988,0.617851,46000.0,0.69,0.0,0.69,0.66,0.69,1.0,46000.0,4
4708,1998-05-28,0.55517,0.617851,0.55517,0.55517,32800.0,0.62,0.0,0.69,0.62,0.62,1.0,32800.0,3
4719,1998-05-12,0.671577,0.725303,0.644714,0.725303,75200.0,0.75,0.0,0.81,0.72,0.81,1.0,75200.0,1
4730,1998-04-27,0.725303,0.725303,0.671577,0.671577,33800.0,0.81,0.0,0.81,0.75,0.75,1.0,33800.0,0
4741,1998-04-09,0.814847,0.868573,0.814847,0.868573,20600.0,0.91,0.0,0.97,0.91,0.97,1.0,20600.0,3
4752,1998-03-25,0.895436,0.949162,0.895436,0.949162,32800.0,1.0,0.0,1.06,1.0,1.06,1.0,32800.0,2
4763,1998-03-10,0.949162,1.00289,0.922299,1.00289,20600.0,1.06,0.0,1.12,1.03,1.12,1.0,20600.0,1
4774,1998-02-23,1.2357,1.2357,1.1193,1.17302,39900.0,1.38,0.0,1.38,1.25,1.31,1.0,39900.0,0
4785,1998-02-05,1.0208,1.1193,1.00289,1.09243,59800.0,1.14,0.0,1.25,1.12,1.22,1.0,59800.0,3
4796,1998-01-21,1.17302,1.2357,1.14616,1.19988,60400.0,1.31,0.0,1.38,1.28,1.34,1.0,60400.0,2
4807,1998-01-05,0.84171,0.895436,0.814847,0.84171,46900.0,0.94,0.0,1.0,0.91,0.94,1.0,46900.0,0
4818,1997-12-17,0.787984,0.868573,0.752166,0.84171,26400.0,0.88,0.0,0.97,0.84,0.94,1.0,26400.0,2
4829,1997-12-02,0.895436,1.06557,0.814847,1.06557,82500.0,1.0,0.0,1.19,0.91,1.19,1.0,82500.0,1
4840,1997-11-14,0.949162,1.00289,0.949162,1.00289,16700.0,1.06,0.0,1.12,1.06,1.12,1.0,16700.0,4
4851,1997-10-30,1.19988,1.19988,1.06557,1.06557,9200.0,1.34,0.0,1.34,1.19,1.19,1.0,9200.0,3
4862,1997-10-15,1.1193,1.1193,1.00289,1.06557,57800.0,1.25,0.0,1.25,1.12,1.19,1.0,57800.0,2
4873,1997-09-30,1.1193,1.1193,0.895436,1.00289,52000.0,1.25,0.0,1.25,1.0,1.12,1.0,52000.0,1
4884,1997-09-15,1.2357,1.2357,1.1193,1.1193,9700.0,1.38,0.0,1.38,1.25,1.25,1.0,9700.0,0
4895,1997-08-28,1.31629,1.56701,1.28943,1.34315,180300.0,1.47,0.0,1.75,1.44,1.5,1.0,180300.0,3
4906,1997-08-13,1.2357,1.2357,1.2357,1.2357,1400.0,1.38,0.0,1.38,1.38,1.38,1.0,1400.0,2
4917,1997-07-29,1.1193,1.2357,1.1193,1.19988,62800.0,1.25,0.0,1.38,1.25,1.34,1.0,62800.0,1
4928,1997-07-14,1.45061,1.62074,1.39688,1.56701,74200.0,1.62,0.0,1.81,1.56,1.75,1.0,74200.0,0
4939,1997-06-26,1.06557,1.06557,1.00289,1.03871,19400.0,1.19,0.0,1.19,1.12,1.16,1.0,19400.0,3
4950,1997-06-11,1.51329,1.51329,1.39688,1.45061,16700.0,1.69,0.0,1.69,1.56,1.62,1.0,16700.0,2
4961,1997-05-27,1.68342,1.87146,1.68342,1.79087,133400.0,1.88,0.0,2.09,1.88,2.0,1.0,133400.0,1
4972,1997-05-09,1.68342,1.73715,1.56701,1.68342,260700.0,1.88,0.0,1.94,1.75,1.88,1.0,260700.0,4
4983,1997-04-24,1.39688,1.42374,1.28943,1.34315,138800.0,1.56,0.0,1.59,1.44,1.5,1.0,138800.0,3
4994,1997-04-09,1.42374,1.48642,1.34315,1.48642,43700.0,1.59,0.0,1.66,1.5,1.66,1.0,43700.0,2
5005,1997-03-24,1.62074,1.68342,1.56701,1.62074,44000.0,1.81,0.0,1.88,1.75,1.81,1.0,44000.0,0
5016,1997-03-07,1.56701,1.6476,1.42374,1.54015,715000.0,1.75,0.0,1.84,1.59,1.72,1.0,715000.0,4
5027,1997-02-20,1.45061,1.45061,1.34315,1.39688,209300.0,1.62,0.0,1.62,1.5,1.56,1.0,209300.0,3
5038,1997-02-04,1.37002,1.54015,1.37002,1.39688,32000.0,1.53,0.0,1.72,1.53,1.56,1.0,32000.0,1
5049,1997-01-20,1.96101,2.29232,1.8446,2.21173,409300.0,2.19,0.0,2.56,2.06,2.47,1.0,409300.0,0
5060,1997-01-03,0.949162,1.06557,0.895436,0.949162,62500.0,1.06,0.0,1.19,1.0,1.06,1.0,62500.0,4
5071,1996-12-17,1.1193,1.2357,1.06557,1.06557,136200.0,1.25,0.0,1.38,1.19,1.19,1.0,136200.0,1
5082,1996-12-02,1.51329,1.68342,1.39688,1.68342,84900.0,1.69,0.0,1.88,1.56,1.88,1.0,84900.0,0
5093,1996-11-14,1.62074,1.79087,1.56701,1.56701,39800.0,1.81,0.0,2.0,1.75,1.75,1.0,39800.0,3
5104,1996-10-30,1.68342,1.8446,1.51329,1.8446,50100.0,1.88,0.0,2.06,1.69,2.06,1.0,50100.0,2
5115,1996-10-15,2.34604,2.34604,2.06846,2.23859,28400.0,2.62,0.0,2.62,2.31,2.5,1.0,28400.0,1
5126,1996-09-30,2.57886,2.74003,2.51618,2.54304,43000.0,2.88,0.0,3.06,2.81,2.84,1.0,43000.0,0
5137,1996-09-13,2.34604,2.40872,2.23859,2.23859,28100.0,2.62,0.0,2.69,2.5,2.5,1.0,28100.0,4
5148,1996-08-28,2.51618,2.63258,2.46245,2.46245,16900.0,2.81,0.0,2.94,2.75,2.75,1.0,16900.0,2
5159,1996-08-13,2.46245,2.91017,2.46245,2.91017,16300.0,2.75,0.0,3.25,2.75,3.25,1.0,16300.0,1
5170,1996-07-29,2.91017,2.96389,2.68631,2.91017,57800.0,3.25,0.0,3.31,3.0,3.25,1.0,57800.0,0
5181,1996-07-12,2.85644,3.35789,2.85644,3.35789,25100.0,3.19,0.0,3.75,3.19,3.75,1.0,25100.0,4
5192,1996-06-26,3.30416,3.35789,3.02657,3.24148,22500.0,3.69,0.0,3.75,3.38,3.62,1.0,22500.0,2
5203,1996-06-11,3.58174,3.63547,3.24148,3.35789,12000.0,4.0,0.0,4.06,3.62,3.75,1.0,12000.0,1
5214,1996-05-24,3.85933,3.85933,3.8056,3.8056,24900.0,4.31,0.0,4.31,4.25,4.25,1.0,24900.0,4
5225,1996-05-09,4.25332,4.36973,3.8056,4.36973,146200.0,4.75,0.0,4.88,4.25,4.88,1.0,146200.0,3
5236,1996-04-24,3.6892,3.92201,3.47429,3.92201,14900.0,4.12,0.0,4.38,3.88,4.38,1.0,14900.0,2
5247,1996-04-09,3.13403,3.24148,2.91017,3.24148,17400.0,3.5,0.0,3.62,3.25,3.62,1.0,17400.0,1
5258,1996-03-22,3.35789,3.52802,3.30416,3.30416,9200.0,3.75,0.0,3.94,3.69,3.69,1.0,9200.0,4
5269,1996-03-07,2.91017,3.24148,2.91017,3.02657,12500.0,3.25,0.0,3.62,3.25,3.38,1.0,12500.0,3
5280,1996-02-21,2.68631,2.68631,2.46245,2.46245,5700.0,3.0,0.0,3.0,2.75,2.75,1.0,5700.0,2
5291,1996-02-05,2.57886,2.91017,2.57886,2.68631,34300.0,2.88,0.0,3.25,2.88,3.0,1.0,34300.0,0
5302,1996-01-19,2.46245,2.46245,2.29232,2.29232,10400.0,2.75,0.0,2.75,2.56,2.56,1.0,10400.0,4
5313,1996-01-04,3.02657,3.02657,2.79376,2.79376,5700.0,3.38,0.0,3.38,3.12,3.12,1.0,5700.0,3
5324,1995-12-18,2.68631,3.58174,2.34604,3.35789,133000.0,3.0,0.0,4.0,2.62,3.75,1.0,133000.0,0
5335,1995-12-01,3.8056,4.02946,3.78769,3.8056,22100.0,4.25,0.0,4.5,4.23,4.25,1.0,22100.0,4
5346,1995-11-15,4.58463,4.70104,4.47718,4.47718,65400.0,5.12,0.0,5.25,5.0,5.0,1.0,65400.0,2
5357,1995-10-31,4.70104,5.03235,4.47718,4.47718,84100.0,5.25,0.0,5.62,5.0,5.0,1.0,84100.0,1
5368,1995-10-16,4.08319,4.36973,4.08319,4.08319,11100.0,4.56,0.0,4.88,4.56,4.56,1.0,11100.0,0
5379,1995-09-29,4.13691,4.47718,3.92201,4.13691,104300.0,4.62,0.0,5.0,4.38,4.62,1.0,104300.0,4
5390,1995-09-14,5.03235,5.37262,4.81745,4.9249,178400.0,5.62,0.0,6.0,5.38,5.5,1.0,178400.0,3
5401,1995-08-29,3.6892,3.6892,3.47429,3.6892,27400.0,4.12,0.0,4.12,3.88,4.12,1.0,27400.0,1
5412,1995-08-14,5.26516,5.82033,5.14876,5.59648,193100.0,5.88,0.0,6.5,5.75,6.25,1.0,193100.0,0
5423,1995-07-28,4.13691,4.36973,3.97574,4.36973,100200.0,4.62,0.0,4.88,4.44,4.88,1.0,100200.0,4
5434,1995-07-13,2.91017,2.91017,2.68631,2.68631,74300.0,3.25,0.0,3.25,3.0,3.0,1.0,74300.0,3
5445,1995-06-27,2.68631,2.68631,2.01473,2.01473,91400.0,3.0,0.0,3.0,2.25,2.25,1.0,91400.0,1
5456,1995-06-12,1.8446,1.89832,1.56701,1.68342,14100.0,2.06,0.0,2.12,1.75,1.88,1.0,14100.0,0
5467,1995-05-25,1.39688,1.45061,1.34315,1.39688,28800.0,1.56,0.0,1.62,1.5,1.56,1.0,28800.0,3
5478,1995-05-10,1.34315,1.56701,1.1193,1.2357,65100.0,1.5,0.0,1.75,1.25,1.38,1.0,65100.0,2
5489,1995-04-25,2.57886,2.68631,2.46245,2.68631,14700.0,2.88,0.0,3.0,2.75,3.0,1.0,14700.0,1
5500,1995-04-07,2.68631,2.91017,2.46245,2.91017,31600.0,3.0,0.0,3.25,2.75,3.25,1.0,31600.0,4
5511,1995-03-23,2.68631,2.79376,2.56095,2.79376,2300.0,3.0,0.0,3.12,2.86,3.12,1.0,2300.0,3
5522,1995-03-08,2.68631,2.79376,2.46245,2.79376,8100.0,3.0,0.0,3.12,2.75,3.12,1.0,8100.0,2
5533,1995-02-21,2.68631,2.91017,2.68631,2.91017,28600.0,3.0,0.0,3.25,3.0,3.25,1.0,28600.0,1
5544,1995-02-03,2.96389,3.24148,2.96389,2.96389,12300.0,3.31,0.0,3.62,3.31,3.31,1.0,12300.0,4
5555,1995-01-19,2.91017,2.91017,2.79376,2.79376,7000.0,3.25,0.0,3.25,3.12,3.12,1.0,7000.0,3
5566,1995-01-04,3.58174,3.58174,3.35789,3.35789,20400.0,4.0,0.0,4.0,3.75,3.75,1.0,20400.0,2
5577,1994-12-16,4.02946,4.02946,3.6892,3.92201,35200.0,4.5,0.0,4.5,4.12,4.38,1.0,35200.0,4
5588,1994-12-01,3.6892,3.92201,3.58174,3.8056,27100.0,4.12,0.0,4.38,4.0,4.25,1.0,27100.0,3
5599,1994-11-15,4.13691,4.25332,3.92201,4.02946,66900.0,4.62,0.0,4.75,4.38,4.5,1.0,66900.0,1
5610,1994-10-31,4.25332,4.42345,4.02946,4.02946,202400.0,4.75,0.0,4.94,4.5,4.5,1.0,202400.0,0
5621,1994-10-14,3.47429,3.8056,3.47429,3.58174,44600.0,3.88,0.0,4.25,3.88,4.0,1.0,44600.0,4
5632,1994-09-29,3.13403,3.13403,2.91017,3.02657,25900.0,3.5,0.0,3.5,3.25,3.38,1.0,25900.0,3
5643,1994-09-14,3.47429,3.8056,3.35789,3.8056,52600.0,3.88,0.0,4.25,3.75,4.25,1.0,52600.0,2
5654,1994-08-29,3.24148,3.24148,3.24148,3.24148,6200.0,3.62,0.0,3.62,3.62,3.62,1.0,6200.0,0
5665,1994-08-12,3.47429,3.50116,3.35789,3.47429,28200.0,3.88,0.0,3.91,3.75,3.88,1.0,28200.0,4
5676,1994-07-28,3.24148,3.8056,3.24148,3.58174,46900.0,3.62,0.0,4.25,3.62,4.0,1.0,46900.0,3
5687,1994-07-13,3.58174,3.8056,3.35789,3.35789,45900.0,4.0,0.0,4.25,3.75,3.75,1.0,45900.0,2
5698,1994-06-27,3.6892,3.92201,3.6892,3.8056,22200.0,4.12,0.0,4.38,4.12,4.25,1.0,22200.0,0
5709,1994-06-10,4.70104,4.70104,4.47718,4.70104,28400.0,5.25,0.0,5.25,5.0,5.25,1.0,28400.0,4
5720,1994-05-25,3.97574,4.13691,3.92201,3.92201,13500.0,4.44,0.0,4.62,4.38,4.38,1.0,13500.0,2
5731,1994-05-10,4.36973,4.58463,4.36973,4.47718,13600.0,4.88,0.0,5.12,4.88,5.0,1.0,13600.0,1